Folder: cement

File: Concrete_Data_20K_Expanded.csv
Cement (component 1)(kg in a m^3 mixture),Blast Furnace Slag (component 2)(kg in a m^3 mixture),Fly Ash (component 3)(kg in a m^3 mixture),Water  (component 4)(kg in a m^3 mixture),Superplasticizer (component 5)(kg in a m^3 mixture),Coarse Aggregate  (component 6)(kg in a m^3 mixture),Fine Aggregate (component 7)(kg in a m^3 mixture),Age (day),"Concrete compressive strength(MPa, megapascals) "
540.0,0.0,0.0,162.0,2.5,1040.0,676.0,28.0,79.99
388.6,97.1,0.0,157.9,12.1,852.1,925.7,91.0,57.6
297.2,0.0,117.5,174.8,9.5,1022.8,753.5,14.0,36.99
424.0,22.0,132.0,178.0,8.5,822.0,750.0,7.0,39.0
102.0,153.0,0.0,192.0,0.0,887.0,942.0,28.0,17.28
156.0,243.0,0.0,180.0,11.0,1022.0,698.0,28.0,37.36
288.4,121.0,0.0,177.4,7.0,907.9,829.5,28.0,42.14
374.618,200.089,0.0,154.208,11.8318,913.933,735.824,57.6418,82.086
223.203,0.0,116.541,157.539,12.5468,1092.55,851.505,13.4076,43.3673
467.462,24.2417,113.261,205.151,3.85826,837.594,723.132,28.3719,59.8249
280.358,199.177,0.0,194.437,0.0,968.747,658.213,25.627,45.1591
286.243,134.931,0.0,175.331,10.1815,835.347,789.592,26.285,47.9648
328.983,0.0,119.185,223.134,6.04669,867.191,690.089,26.2787,40.2748
201.849,145.443,0.0,218.497,0.0,930.526,846.209,26.8457,31.9908
244.646,0.0,0.0,172.714,0.0,1036.31,812.285,7.24773,13.7318
507.642,0.0,0.0,171.053,2.33954,1034.93,686.807,28.0311,60.7594
322.824,168.595,0.0,175.6,9.20419,1056.4,684.701,28.0135,51.3742
310.824,112.282,0.0,173.742,6.79128,874.511,748.798,30.1301,41.1659
419.931,27.6266,67.0738,142.341,11.1581,992.49,685.618,6.80971,48.8426
185.02,43.664,128.208,157.908,11.2724,1063.37,807.441,2.86256,7.78459
233.348,99.2231,23.9479,171.448,6.58979,1029.49,794.602,31.4215,42.5404
300.123,130.41,0.0,202.637,5.55965,879.904,794.302,28.9748,45.0981
221.187,147.575,0.0,177.738,0.0,1006.44,794.04,28.745,24.8639
393.222,21.3336,90.4661,174.883,11.923,866.74,809.29,29.9894,49.5817
336.956,0.0,0.0,235.579,0.0,883.869,782.231,92.1271,47.0697
505.527,0.0,0.0,168.503,0.0,1199.02,580.24,3.23102,38.6458
259.658,0.0,0.0,178.692,0.0,1195.81,747.372,7.6141,10.6539
357.87,179.412,0.0,180.288,9.00918,945.661,795.55,6.88539,33.6052
333.881,0.0,0.0,158.945,0.0,1089.16,761.098,6.83176,19.7704
167.704,124.063,130.002,165.46,7.90477,1093.94,699.689,99.8872,49.319
187.076,133.378,0.0,180.038,0.0,1036.89,764.401,28.6554,23.5892
209.535,316.025,0.0,188.505,0.0,997.446,599.176,6.96821,20.8506
346.523,279.166,0.0,176.062,10.3271,929.967,733.166,3.24353,30.8216
293.868,138.654,118.782,213.929,6.06316,817.722,610.58,29.6269,52.4447
161.201,196.079,0.0,180.219,11.9725,989.383,824.444,28.2666,32.3392
157.285,73.8814,163.18,162.564,7.3836,988.515,758.392,56.7402,54.9237
279.98,0.0,0.0,197.887,0.0,1154.09,829.085,24.1677,25.0651
216.17,0.0,122.176,157.941,12.3299,1090.26,799.507,3.07778,15.1161
166.849,0.0,174.738,131.633,7.38858,1054.28,812.093,97.1906,42.5045
198.53,123.052,0.0,189.363,0.0,1022.42,875.858,6.40576,15.5071
361.969,185.722,0.0,181.122,9.83603,984.094,781.5,6.8235,33.982
196.445,112.978,0.0,174.572,0.0,1063.23,718.527,29.3089,17.2501
96.3108,175.773,0.0,175.587,0.0,940.592,866.873,28.567,20.9891
133.701,186.037,130.426,162.005,11.0313,867.261,774.619,33.0933,49.1964
186.332,300.226,0.0,173.917,15.0535,933.516,851.814,26.7964,39.4662
132.921,163.846,131.123,160.515,10.0762,948.81,777.76,28.3609,25.9271
273.798,222.678,0.0,136.842,12.486,782.171,890.288,2.9462,27.6766
445.156,173.78,0.0,176.932,11.0202,900.129,656.39,3.30695,37.9331
238.925,0.0,0.0,189.239,0.0,1151.67,814.268,29.0011,19.0468
391.611,0.0,136.173,183.5,22.0443,899.106,744.258,24.7188,69.4967
141.927,161.639,122.079,178.176,6.75396,753.313,737.494,26.5724,29.7216
237.894,147.462,0.0,207.369,0.0,1038.35,733.394,7.145,18.8245
180.176,168.198,0.0,224.812,0.0,996.31,697.18,280.197,44.8476
190.462,151.951,0.0,169.874,0.0,1124.17,789.429,7.33216,13.1113
237.127,156.935,0.0,184.486,0.0,1062.52,758.792,7.59054,14.8821
402.739,0.0,0.0,213.561,0.0,1010.23,698.036,27.6312,41.1532
320.137,203.595,0.0,165.303,14.7981,847.652,850.162,92.4793,69.9039
343.448,177.105,0.0,190.207,8.67746,815.54,830.06,27.3355,62.3455
208.727,0.0,95.6867,183.565,4.64334,878.337,838.142,54.2381,28.4814
187.736,359.694,0.0,188.66,0.0,955.266,649.324,3.21669,9.69139
109.487,164.866,0.0,183.147,0.0,928.897,1167.39,31.1896,15.1958
166.456,46.829,119.647,167.063,7.99449,1027.1,771.774,3.13911,6.92316
433.962,22.6551,122.255,181.509,8.04593,934.057,715.202,25.6698,63.4457
335.476,200.333,0.0,165.582,14.1284,767.398,822.687,51.5847,64.8343
337.205,0.0,0.0,188.662,0.0,1122.19,796.722,3.27336,15.7205
436.412,181.095,0.0,188.574,11.7741,1016.03,724.081,84.1191,76.4594
185.791,179.539,0.0,232.38,0.0,1014.05,681.421,29.1899,39.3258
355.995,200.85,0.0,186.911,0.0,925.321,719.761,6.88397,20.142
342.411,0.0,0.0,198.766,0.0,969.145,873.944,23.5869,31.4055
307.133,0.0,0.0,197.382,0.0,1085.79,826.107,7.24638,20.8158
318.599,0.0,0.0,204.219,0.0,810.435,993.951,2.84194,13.0616
366.625,177.688,0.0,166.658,11.2614,1062.75,780.623,7.10291,60.6463
216.771,0.0,133.909,164.791,7.99478,1051.69,826.333,84.67,40.3733
196.112,326.539,0.0,186.148,0.0,977.468,689.035,8.20234,20.4746
291.756,0.0,100.251,169.554,10.1902,1223.3,751.929,2.97509,22.984
151.768,213.838,0.0,196.091,0.0,1169,905.797,6.91436,7.80223
141.594,0.0,106.104,184.133,7.88166,1119.93,779.075,29.5479,12.5993
193.789,0.0,116.032,137.835,7.91299,1054.63,696.808,2.86481,20.459
218.635,0.0,97.8686,158.04,10.6213,1011.81,805.293,14.6662,24.2266
213.036,164.816,0.0,197.173,0.0,918.895,718.705,74.4002,46.0225
186.041,11.5948,132.528,189.187,1.38824,950.424,820.655,28.0191,23.4908
347.49,0.0,107.453,188.702,6.49631,929.165,684.228,26.3151,40.7586
272.331,75.0582,0.0,227.621,0.0,989.74,641.864,264.761,55.7226
269.081,146.232,0.0,193.485,0.0,1138.76,671.029,31.435,29.4158
505.989,28.8216,123.064,211.002,3.71056,885.416,718.584,26.972,56.8422
181.78,0.0,123.244,168.06,10.5916,1136.29,749.026,94.445,40.9297
231.221,0.0,118.072,203.918,5.54565,889.442,690.604,59.3097,37.6733
175.564,0.0,180.347,201.708,13.2516,877.42,895.686,26.7021,16.3461
175.681,13.3127,170.458,144.702,4.35323,1064.43,865.003,52.6976,39.5127
258.097,196.336,0.0,171.333,13.6849,715.157,853.89,54.9085,68.7365
242.649,156.936,0.0,201.397,0.0,993.858,748.29,96.2865,46.1066
245.303,0.0,120.885,193.88,6.24576,1237.63,755.647,2.94774,18.0481
218.586,115.843,86.2146,206.294,6.36134,966.024,660.098,27.6704,47.2049
164.863,0.0,173.341,147.959,14.3101,859.617,796.645,26.9958,15.7789
176.452,263.96,0.0,195.539,11.4974,877.093,956.478,26.8779,40.5532
203.273,0.0,110.744,165.381,6.92503,1112.15,769.538,2.90193,12.9516
258.085,121.436,81.753,180.376,8.62191,882.629,664.004,27.9712,50.0581
110.726,183.315,0.0,183.056,0.0,965.846,965.211,29.9198,22.173
202.739,125.518,0.0,198.541,0.0,977.088,857.891,98.4772,39.9509
382.288,194.725,0.0,172.765,11.9912,1023.55,850.183,7.48469,59.0951
475.567,51.1857,0.0,187.548,0.0,949.604,665.09,27.9114,36.7023
156.254,125.105,80.8629,185.364,5.73401,957.761,709.476,28.1834,22.8751
327.141,0.0,0.0,201.064,0.0,1021.92,786.587,2.55988,13.6153
363.85,0.0,0.0,187.331,0.0,1158.18,712.856,28.7519,28.4176
251.689,100.165,0.0,261.575,0.0,977.441,678.353,273.387,57.5788
448.628,23.1432,84.893,156.733,11.1081,931.53,683.041,2.85463,34.4997
328.117,0.0,0.0,155.538,0.0,1068.28,712.086,6.4367,19.0458
275.199,0.0,0.0,189.209,0.0,971.677,867.677,198.22,23.1812
160.781,273.033,0.0,189.948,0.0,808.718,827.431,29.8503,35.2756
294.961,0.0,105.235,223.729,11.5415,829.352,753.186,29.1099,33.6652
205.437,0.0,99.1524,173.223,6.95691,1052.21,879.878,101.407,45.034
382.11,19.7224,90.414,152.781,14.2142,995.862,917.571,59.941,50.6886
188.195,0.0,124.825,158.402,10.8467,1062.63,799.899,2.88121,16.4765
172.515,137.233,0.0,216.461,0.0,937.488,740.756,3.16215,5.01228
244.264,0.0,98.3825,167.617,5.12556,1033.77,776.058,103.06,45.1221
367.571,163.194,0.0,143.584,13.4749,1173.89,678.352,64.8022,58.4548
339.094,0.0,0.0,193.928,0.0,918.368,887.929,349.622,42.2482
350.688,246.374,0.0,162.48,8.69075,994.589,575.178,3.01548,31.3396
127.572,0.0,164.329,195.749,3.85086,1074.21,651.476,2.86664,10.3659
367.039,0.0,0.0,217.221,0.0,987.768,709.728,27.7239,25.1261
127.794,123.73,100.115,184.571,6.98645,907.805,763.051,28.9781,25.2028
266.913,0.0,140.856,140.035,11.7168,1186.9,766.736,2.96952,23.4933
170.453,130.089,130.801,193.883,7.73675,1064.64,714.899,26.9097,37.6868
166.04,13.8917,168.004,159.185,4.16884,1098.09,884.278,23.9779,32.9924
197.781,0.0,113.211,175.018,5.78564,1115.43,830.453,14.3734,24.0789
370.688,0.0,0.0,183.646,0.0,940.899,705.102,7.54818,25.3095
269.278,191.797,0.0,201.995,0.0,862.808,728.693,3.02583,16.5806
304.014,0.0,0.0,201.039,0.0,951.146,874.323,13.0155,27.6629
185.541,0.0,76.7974,178.262,7.93936,1108.98,775.85,3.08624,12.0371
264.692,150.073,105.949,176.097,9.23242,786.558,710.294,27.7433,52.0016
186.998,0.0,134.82,157.276,8.1302,906.936,787.553,2.83975,15.896
176.803,37.3808,122.7,151.415,10.8933,1147.7,799.216,30.0312,31.0601
142.769,126.314,120.184,181.784,5.69734,861.646,948.162,26.4885,32.2336
274.989,0.0,118.927,164.421,8.86899,1069.04,815.656,100.574,59.8138
365.452,0.0,0.0,208.731,0.0,1021.56,806.286,29.2449,25.8855
241.782,103.69,85.5873,179.232,8.87565,892.711,810.636,25.6031,43.3305
550.502,0.0,0.0,137.962,27.8723,810.834,1001.86,7.14872,42.044
306.817,0.0,0.0,169.742,0.0,1056.03,754.584,15.909,22.8657
204.522,190.969,0.0,234.924,0.0,830.461,592.394,30.7428,44.2615
467.278,23.9823,79.9253,147.688,13.5756,860.236,720.194,2.89782,24.6291
144.306,150.955,118.048,163.999,7.20113,935.125,758.394,28.5616,25.0745
258.389,0.0,0.0,168.391,0.0,1233.28,759.197,29.7312,20.6179
525.922,0.0,0.0,134.662,22.6605,829.366,993.999,6.74691,47.3527
257.845,0.0,0.0,179.162,0.0,1169.15,792.8,6.84609,13.7925
522.449,0.0,0.0,155.347,33.3122,877.043,892.834,29.3356,58.7159
266.999,0.0,84.9527,212.533,4.65931,914.56,857.442,12.2078,23.5988
253.24,144.479,0.0,211.394,0.0,896.868,691.898,79.0126,44.9635
171.82,196.367,148.498,188.412,10.3352,752.463,699.418,25.445,30.5848
305.261,0.0,0.0,198.621,0.0,871.999,682.733,14.0206,26.0409
459.843,26.5807,89.5506,158.961,11.6693,1016.23,705.712,57.0398,58.832
166.163,250.955,0.0,173.776,0.0,964.386,693.689,7.82501,13.8963
316.701,190.059,0.0,169.426,13.8607,735.012,817.986,57.1132,58.2452
273.208,183.393,0.0,174.131,9.65987,895.454,814.264,80.9562,65.9731
233.69,0.0,98.344,121.475,10.6834,1119.92,971.18,115.149,60.0138
317.179,0.0,0.0,221.383,0.0,1024.05,761.216,202.825,28.4935